<?xml version="1.0" encoding="UTF-8"?>
<Bundle xmlns="http://hl7.org/fhir">
	<id value="c4044e93-5602-560c-9f25-6e68a1ceeaf5"/>
	<type value="message"/>
	<entry>
		<fullUrl value="urn:uuid:7774c18e-a603-5ce7-9b06-481be56cb6b6"/>
		<resource>
			<MessageHeader>
				<id value="7774c18e-a603-5ce7-9b06-481be56cb6b6"/>
				<meta>
					<profile value="http://ehelse.no/fhir/StructureDefinition/vkp-MessageHeader-v06"/>
				</meta>
				<event>
					<system value="http://ehelse.no/fhir/ValueSet/vkp-message-event-v05"/>
					<code value="MedicationDispense"/>
				</event>
				<receiver>
					<identifier>
						<system value="urn:oid:2.16.578.1.12.4.1.2"/>
						<value value="95938"/>
					</identifier>
					<display value="Sykepleietjeneste, pleie- og omsorg"/>
				</receiver>
				<sender>
					<identifier>
						<system value="urn:oid:2.16.578.1.12.4.1.2"/>
						<value value="8134527"/>
					</identifier>
					<display value="Evondos medication service"/>
				</sender>
				<timestamp value="2018-07-31T10:29:46Z"/>
				<source>
					<endpoint value="https://vkp.azure-devices.net/devices/8134527"/>
				</source>
				<focus>
					<reference value="urn:uuid:285357b8-1ec8-429b-827e-3bcd92366369"/>
					<display value="Composition"/>
				</focus>
				<focus>
					<reference value="urn:uuid:ba6747fd-11dc-5e21-b3b8-87ac1849acc5"/>
					<display value="MedicationDispense"/>
				</focus>
			</MessageHeader>
		</resource>
	</entry>
	<entry>
		<fullUrl value="urn:uuid:285357b8-1ec8-429b-827e-3bcd92366369"/>
		<resource>
			<Composition>
				<id value="285357b8-1ec8-429b-827e-3bcd92366369"/>
				<status value="final"/>
				<type>
					<coding>
						<code value="11488-4"/>
						<display value="Consult note"/>
					</coding>
				</type>
				<subject>
					<identifier>
						<system value="urn:oid:2.16.578.1.12.4.1.4.1"/>
						<value value="29098300000"/>
					</identifier>
					<display value="Testbruker EVON"/>
				</subject>
				<date value="2018-07-31T10:29:00Z"/>
				<author>
					<identifier>
						<system value="urn:oid:2.16.578.1.12.4.1.4.1"/>
						<value value="04056600324"/>
					</identifier>
					<display value="Magnar Koman"/>
				</author>
				<title value="Journalnotat for Medisinutleveringen"/>
				<section>
					<title value="Response summary"/>
					<text>
						<status value="additional"/>
						<div xmlns="http://www.w3.org/1999/xhtml">Avvikssituasjon er rettet opp.</div>
					</text>
					<entry>
						<reference value="urn:uuid:ba6747fd-11dc-5e21-b3b8-87ac1849acc5"/>
						<display value="MedicationDispense"/>
					</entry>
				</section>
				<section>
					<title value="Signature"/>
					<text>
						<status value="additional"/>
						<div xmlns="http://www.w3.org/1999/xhtml">Magnar Koman (123456)</div>
					</text>
				</section>
			</Composition>
		</resource>
	</entry>
	<entry>
		<fullUrl value="urn:uuid:ba6747fd-11dc-5e21-b3b8-87ac1849acc5"/>
		<resource>
			<MedicationDispense>
				<id value="ba6747fd-11dc-5e21-b3b8-87ac1849acc5"/>
				<meta>
					<profile value="http://ehelse.no/fhir/StructureDefinition/vkp-MedicationDispense-v06"/>
				</meta>
				<identifier>
					<system value="urn:ietf:rfc:3986"/>
					<value value="967401db-59d7-4f38-a6f0-5a5af8bdf290"/>
				</identifier>
				<status value="completed"/>
				<category>
					<coding>
						<system value="http://ehelse.no/fhir/CodeSystem/vkp-medicationdispense-events-v06"/>
						<code value="6"/>
						<display value="medisin_mangler"/>
					</coding>
				</category>
				<medicationCodeableConcept>
					<text value="Ukjent medisin"/>
				</medicationCodeableConcept>
				<subject>
					<identifier>
						<system value="urn:oid:2.16.578.1.12.4.1.4.1"/>
						<value value="29098300000"/>
					</identifier>
					<display value="Testbruker EVON"/>
				</subject>
				<performer>
					<actor>
						<identifier>
							<system value="https://fhir.evondos.com/e300-codes/serialnumber"/>
							<value value="PP000533"/>
						</identifier>
						<display value="Evondos E300 multidosedispenser"/>
					</actor>
				</performer>
				<whenHandedOver value="2018-07-31T08:00:00Z"/>
			</MedicationDispense>
		</resource>
	</entry>
</Bundle>