<Bundle xmlns="http://hl7.org/fhir" xmlns:xsi="http://www.w3.org/2001/XMLSchema-instance" xsi:schemaLocation="http://hl7.org/fhir ../../STU3/fhir-all-xsd/fhir-single.xsd">
  <id value="033056cb-f7b5-450f-a2bd-67bf2c6d5a4f" />
  <type value="message" />
  <entry>
    <fullUrl value="urn:uuid:b6915161-13b1-41d1-9820-fc34b76005a6" />
    <resource>
      <MessageHeader>
        <id value="b6915161-13b1-41d1-9820-fc34b76005a6" />
        <event>
          <system value="http://ehelse.no/fhir/CodeSystem/vkp-message-event-v05" />
          <code value="MedicationDispense" />
        </event>
        <receiver>
          <identifier>
            <system value="urn:oid:2.16.578.1.12.4.1.2" />
            <value value="102287" />
          </identifier>
          <display value="Sykepleietjeneste, pleie- og omsorg" />
        </receiver>
        <sender>
          <identifier>
            <system value="urn:oid:2.16.578.1.12.4.1.2" />
            <value value="95341" />
          </identifier>
          <display value="Velferdpoclev1" />
        </sender>
        <timestamp value="2012-01-04T09:10:14+00:00" />
        <source>
          <endpoint value="https://vkp.azure-devices.net/devices/95341" />
        </source>
        <focus>
          <reference value="urn:uuid:9c16a4a0-dfc0-4cc1-b136-579571cecbae" />
          <display value="MedicationDispense" />
        </focus>
        <focus>
			<reference value="urn:uuid:d0a5238c-51be-4c67-b949-a4ef0b2c65fb" />
			<display value="Flag" />
        </focus>
      </MessageHeader>
    </resource>
  </entry>
  <entry>
    <fullUrl value="urn:uuid:9c16a4a0-dfc0-4cc1-b136-579571cecbae" />
    <resource>
      <MedicationDispense>
        <id value="9c16a4a0-dfc0-4cc1-b136-579571cecbae" />
        <meta>
			<profile value="http://ehelse.no/fhir/StructureDefinition/vkp-MedicationDispense-v06"/>
		</meta>
        <identifier>
          <system value="urn:ietf:rfc:3986"/>
          <value value="urn:uuid:c42984fc-8ca8-48d7-8bbf-7fe5503c49a9" />
        </identifier>
        <status value="completed" />
        <category>
          <coding>
            <system value="http://ehelse.no/fhir/CodeSystem/vkp-medicationdispense-events-v05" />
            <code value="2"/>
			<display value="medisin_ikke_utlevert" />
          </coding>
        </category>
        <medicationCodeableConcept>
          <text value="Ukjent medisin" />
        </medicationCodeableConcept>
        <subject>
          <identifier>
            <system value="urn:oid:2.16.578.1.12.4.1.4.1" />
            <value value="05073500186" />
          </identifier>
          <display value="Ærlend Sørgård" />
        </subject>
		<performer>
			<actor>
          <identifier>
            <system value="http://dignio.no/IMEInummer" />
            <value value="123456789101112" />
          </identifier>
          <display value="Medido multidosesdispenser"/>
        </actor>
      </performer>
			<whenHandedOver value="2017-05-09T08:00:00.936Z"/>
      </MedicationDispense>
    </resource>
  </entry>
  <entry>
	<fullUrl value="urn:uuid:d0a5238c-51be-4c67-b949-a4ef0b2c65fb"/>
		<resource>
			<Flag xmlns="http://hl7.org/fhir"> 
				<meta>
					<profile value="http://ehelse.no/fhir/StructureDefinition/vkp-Flag-v06"/>
				</meta>
				<extension url="http://ehelse.no/fhir/StructureDefinition/vkp-emergency-level-v06">
					<extension url="emergency-level">
						<valueCodeableConcept>
							<coding>
								<system value="http://ehelse.no/fhir/CodeSystem/vkp-emergency-level-v06" />
								<code value="Y"/>
								<display value="yellow"/>
							</coding>
						</valueCodeableConcept> 
					</extension>
				</extension>
				<extension url="http://hl7.org/fhir/StructureDefinition/flag-detail"> <!-- Offisiell FHIR utvidelse for å legge inn referanse til ressurs som inneholder ytterligere informasjon i dette tilfellet MedicationDispense -->
					<valueReference>
						<reference value="urn:uuid:9c16a4a0-dfc0-4cc1-b136-579571cecbae"/>
					</valueReference>
				</extension>
				<identifier> <!-- Forretnings identifikator for Flagget (Business identifier), vi foretrekker en unik persistent id UUID -->
					<system value="urn:ietf:rfc:3986" />
					<value value="urn:uuid:850ccc4d-3021-448d-aa9c-5f46efbf4f6a"/>
				</identifier>
				<status value="active"/>
				<!-- 1..1 active | inactive | entered-in-error -->
				<code>
					<!-- 1..1 CodeableConcept Partially deaf, Requires easy open caps, No permanent address, etc. -->
					<text value="Medisin ble ikke utlevert til planlagt tid"/>
				</code>
				<subject>
					<!-- Referanse til pasient to ganger, antakelig ikke nødvendig -->
					<identifier>
						<system value="urn:oid:2.16.578.1.12.4.1.4.1"/>
						<value value="05073500186"/>
					</identifier>
				</subject>
				<period>
					<start value="2017-05-09T08:00:00.936Z"/>
				</period>
			</Flag>
		</resource>
  </entry>
</Bundle>