<Bundle xmlns="http://hl7.org/fhir" xmlns:xsi="http://www.w3.org/2001/XMLSchema-instance" xsi:schemaLocation="http://hl7.org/fhir ../../STU3/fhir-all-xsd/fhir-single.xsd">
	<id value="605f4a17-12a4-4f75-b649-1a706c03f015"/>
	<type value="message"/>
	<!-- Hendelse MedicationDispense Composition Bundle
         Example of Hendelse Bundle with MedicationDispense and Compositon for use in eVik (Hendelse-Bundle-composition.xml) -->
	<entry>
		<fullUrl value="urn:uuid:2981a09d-4637-4c4d-bc4c-670cfa0497c0"/>
		<resource>
			<MessageHeader>
				<id value="2981a09d-4637-4c4d-bc4c-670cfa0497c0"/>
				<meta>
					<profile value="http://ehelse.no/fhir/StructureDefinition/vkp-MessageHeader-v06"/>
				</meta>
				<event>
					<system value="http://ehelse.no/fhir/CodeSystem/vkp-message-event-v05" />
					<code value="MedicationDispense" />
				</event>
				<receiver>
					<identifier>
						<system value="urn:oid:2.16.578.1.12.4.1.2"/>
						<value value="102287"/>
					</identifier>
					<display value="Sykepleietjeneste, pleie- og omsorg"/>
				</receiver>
				<sender>
					<identifier>
						<system value="urn:oid:2.16.578.1.12.4.1.2"/>
						<value value="95341"/>
					</identifier>
					<display value="Velferdpoclev1"/>
				</sender>
				<timestamp value="2018-07-31T08:00:46Z"/>
				<source>
					<endpoint value="https://vkp.azure-devices.net/devices/95341"/>
				</source>
				<focus>
					<reference value="urn:uuid:285357b8-1ec8-429b-827e-3bcd92366126"/>
					<display value="Composition"/>
				</focus>
				<focus>
					<reference value="urn:uuid:c31bd880-2b09-4eda-a5a3-90090d49dad5"/>
					<display value="MedicationDispense"/>
				</focus>
			</MessageHeader>
		</resource>
	</entry>
	<entry>
		<fullUrl value="urn:uuid:285357b8-1ec8-429b-827e-3bcd92366126"/>
		<resource>
			<Composition>
				<id value="285357b8-1ec8-429b-827e-3bcd92366126"/>
				<status value="final"/>
				<!-- Status er alltid final når Composition sendes første gang, kan ha andre statuser hvis man ønsker å endre på avsendt Composition (amended og entered in error) -->
				<type>
					<coding>
						<code value="11488-4"/>
						<!-- LOINC kode, mer enn tusen koder å velge mellom, her er det mulig å benytte eget kodeverk som er gjenkjennbart for norske EPJ -->
						<display value="Consult note"/>
					</coding>
				</type>
				<subject>
					<!-- Referanse til pasient obligatorisk i Composition-->
					<identifier>
						<system value="urn:oid:2.16.578.1.12.4.1.4.1"/>
						<value value="05073500186"/>
					</identifier>
				</subject>
				<date value="2017-05-09T08:30:00.936Z"/>
				<!-- Timestamp for journalnotatet, må være senere enn hendelsen-->
				<author> <!-- Behandleren som har skrevet notatet, ingen begrensninger på type og antall i dagens "profil" -->
					<identifier>
						<system value="urn:oid:2.16.578.1.12.4.1.4.1"/>
						<value value="04056600324"/>
					</identifier>
					<display value="Magnar Koman"/>
				</author>
				<title value="Journalnotat for Medisinutleveringen"/>
				<section>
					<title value="Response summary"/>
					<text>
						<!-- Selve notatet-->
						<status value="additional"/>
						<!-- Alltid additional siden dette er mennesker som har skrevet notater som tillegg til den strukturerte informasjonen-->
						<div xmlns="http://www.w3.org/1999/xhtml">
							XHTML strukturert tekstinformasjon
						</div>
					</text>
					<entry>
						<!-- A reference to data that supports this section. In this case the vft-medicationadministration -->
						<reference value="urn:uuid:c31bd880-2b09-4eda-a5a3-90090d49dad5"/>
						<display value="MedicationDispense"/>
					</entry>
				</section>
				<section>
					<title value="Signature"/>
					<text>
						<status value="additional"/>
						<div xmlns="http://www.w3.org/1999/xhtml">
						Magnar Komann (magnark)</div>
					</text>
				</section>
			</Composition>
		</resource>
	</entry>
	<entry>
		<fullUrl value="urn:uuid:c31bd880-2b09-4eda-a5a3-90090d49dad5"/>
		<resource>
			<MedicationDispense>
				<id value="c31bd880-2b09-4eda-a5a3-90090d49dad5"/>
				<meta>
					<profile value="http://ehelse.no/fhir/StructureDefinition/vkp-MedicationDispense-v06"/>
				</meta>
				<identifier>
					<system value="urn:ietf:rfc:3986"/>
					<value value="urn:uuid:c42984fc-8ca8-48d7-8bbf-7fe5503c49a9"/>
				</identifier>
				<status value="completed"/>
				<category>
					<coding>
						<system value="http://ehelse.no/fhir/CodeSystem/vkp-medicationdispense-events-v06"/>
						<code value="2"/>
						<display value="medisin_ikke_utlevert"/>
					</coding>
				</category>
				<medicationCodeableConcept>
					<text value="Ukjent medisin"/>
				</medicationCodeableConcept>
				<subject>
					<identifier>
						<system value="urn:oid:2.16.578.1.12.4.1.4.1"/>
						<value value="05073500186"/>
					</identifier>
					<display value="Ærlend Sørgård"/>
				</subject>
				<performer>
					<actor>
						<identifier>
							<system value="http://dignio.no/IMEInummer"/>
							<value value="123456789101112"/>
						</identifier>
						<display value="Medido multidosesdispenser"/>
					</actor>
				</performer>
				<whenHandedOver value="2017-05-09T08:00:00.936Z"/>
			</MedicationDispense>
		</resource>
	</entry>
</Bundle>
